Folder: python-spectrometers/spectrometers/examples/instrument_raw_data

Note: README.rst
spectrometers
~~~~~~~~~~~~~~~

Spectrometers is a simple python API for working with
spectrometers/spectrophotometers. This was originally created as a gist to help
with development of `openSpectrometer`_. This doesn't do anything interesting
yet.

.. _`openSpectrometer`: http://openspectrometer.com/

Example usage
----------

here you go (Nanodrop code not yet actually implemented)

.. code-block:: python

    from spectrometers.devices import Nanodrop

    nanodrop = Nanodrop()

    wavelengths = nanodrop.capture()

    >>> wavelengths
    [0.500, 0.520]


pH determination

.. code-block:: python

    import spectrometers
    spectrometers.calculate_pH("./examples/pH_experiment_data/pH_experiment_config.txt")


    >>>acid lambda max: 445
    >>>acid absorbance: 0.260324
    >>>base absorbance: 0.0559506333333
    >>>buffer absorbance0.157026333333
    >>>base lambda max: 613
    >>>acid absorbance: 0.0142135
    >>>base absorbance: 0.563308666667
    >>>buffer absorbance0.282933333333

Choosing lambda max, and the results of the pH determination
.. image:: https://github.com/nmz787/python-spectrometers/blob/master/python-spectrometers.png

Install
----------
(pip archive not maintained by me, and does not reflect the current github code)

.. code-block:: bash

    sudo pip install spectrometers

or maybe you hate package managers,

.. code-block:: bash

    sudo python setup.py install

Testing
----------

.. code-block:: bash

    make test

Changelog
----------

* 0.0.3: get unit tests passing

* 0.0.2: really minor README tweaks

* 0.0.1: basic python module

License
----------

BSD

File: Biowave__II.txt
$PSD 2 "WAVE-SCAN" "7121" 111943 42 "en"
$PTS "17/01/2013" "18:12:00"
$PHF "Wavescan" ""
$PST
$PC "Product" 0
$PC "Biowave II" 0
$PR
$PC "Version" 0
$PC "7121 V1.7.0" 0
$PR
$PC "Serial Number" 0
$PC "111943" 0
$PR
$PC "Date" 0
$PC "17 January 2013" 0
$PR
$PC "Time" 0
$PC "18:12:00" 0
$PR
$PET
$PST
$PPT "Instrument Calibration Pass" 0
$PR
$PPT "17 January 2013 17:09:48" 0
$PR
$PET
$PST
$PC "Start Wavelength" 0
$PC "350 nm" 0
$PR
$PC "End Wavelength" 0
$PC "800 nm" 0
$PR
$PC "Mode" 0
$PC "Absorbance" 0
$PR
$PET
$PST
$PC "Sample" 48
$PC " 19" 48
$PET
$PST
$PC "Peak Detection" 16
$PR
$PC "Minimum Height" 0
$PC "0.01 A" 0
$PR
$PC "Minimum Width" 0
$PC "5 nm" 0
$PR
$PC "Peaks Sorted By" 0
$PC "Wavelength" 0
$PR
$PET
$PST
$PBR 0 1
$PC "Peak" 272
$PC "Absorbance" 272
$PR
$PC "nm" 272
$PC "A" 272
$PBR 0 1
$PC "399" 1024
$PC "0.152" 1024
$PUR
$PET
$PST
$PBR 0 1
$PC "Cursor" 272
$PC "Absorbance" 272
$PR
$PC "nm" 272
$PC "A" 272
$PBR 0 1
$PC "570" 1024
$PC "0.327" 1024
$PUR
$PET
$PSG
$PAX "Wavelength (nm)" 0 350 800 "Absorbance (A)" 0 0.0210438 0.566088
$PPY 350 1 0 451 0.0812079 0.0823951 0.0835216 0.0846219 0.0861374 0.0874815 0.0888635 0.0906448 0.0918083 0.0929079 0.0949368 0
.0966107 0.0981499 0.099784 0.101003 0.102192 0.103951 0.10553 0.107198 0.109042 0.111489 0.113326 0.115127 0.117191 0.118685 0.
120724 0.12391 0.125843 0.127456 0.129655 0.131142 0.132517 0.134547 0.136198 0.137921 0.140376 0.14205 0.143302 0.144731 0.1459
49 0.147176 0.148251 0.149275 0.150064 0.150868 0.151232 0.151308 0.151505 0.151506 0.151585 0.151489 0.151096 0.150752 0.150115
 0.149148 0.148146 0.146929 0.145181 0.143698 0.142109 0.140158 0.13848 0.136585 0.134126 0.131867 0.129475 0.126659 0.124214 0.
121707 0.119369 0.116523 0.114211 0.111746 0.108284 0.105437 0.102707 0.0996309 0.0972235 0.0946171 0.0913602 0.0887921 0.085950
7 0.0827011 0.0805792 0.0783826 0.0754157 0.0732002 0.0710892 0.0685693 0.0668397 0.065449 0.0636677 0.0621402 0.0609328 0.05958
91 0.0583968 0.0573586 0.056179 0.0553125 0.0544446 0.0532927 0.0522492 0.0514005 0.050563 0.0503032 0.0500759 0.0498416 0.05004
11 0.050346 0.0511244 0.051725 0.052082 0.0528202 0.0534615 0.0537519 0.0542157 0.0547677 0.055283 0.055773 0.0560988 0.0565687
0.0573691 0.0582058 0.0588234 0.059482 0.0599667 0.0606633 0.0612762 0.0621647 0.0629213 0.0634266 0.0641876 0.0650637 0.0662281
 0.0674598 0.0680458 0.0687745 0.070073 0.0711 0.0723435 0.0735572 0.0748209 0.0760017 0.0771919 0.0782835 0.0798056 0.0813859 0
.0830837 0.084576 0.0861077 0.087311 0.0890611 0.0906299 0.0925525 0.095019 0.0965332 0.0980543 0.100294 0.102303 0.104456 0.106
757 0.108749 0.110889 0.113293 0.115203 0.117184 0.119667 0.121898 0.124401 0.127298 0.129437 0.131573 0.134283 0.136864 0.13988
2 0.144049 0.147466 0.151024 0.15536 0.158309 0.160676 0.163473 0.166218 0.169342 0.173267 0.176415 0.179465 0.182938 0.185928 0
.189529 0.19466 0.198833 0.202886 0.20697 0.209649 0.212206 0.215931 0.219361 0.222962 0.227132 0.230119 0.233369 0.238362 0.242
627 0.24661 0.251186 0.254916 0.258749 0.263772 0.268435 0.274398 0.279198 0.283901 0.289751 0.294637 0.299754 0.306064 0.310605
 0.315147 0.3214 0.326594 0.33221 0.339401 0.344511 0.349458 0.355795 0.360412 0.364854 0.369842 0.37377 0.377752 0.382929 0.388
086 0.393468 0.399946 0.405465 0.412823 0.41908 0.425473 0.433639 0.440029 0.445873 0.453222 0.459687 0.466423 0.475924 0.484294
 0.49155 0.498613 0.503641 0.507848 0.514115 0.520972 0.529138 0.539119 0.544858 0.549034 0.552962 0.555862 0.559979 0.562952 0.
564874 0.566055 0.566088 0.565457 0.564776 0.564715 0.565125 0.56548 0.564963 0.563577 0.561001 0.558787 0.556695 0.553402 0.550
563 0.546719 0.541993 0.536042 0.527323 0.519064 0.51027 0.498681 0.489201 0.479772 0.467859 0.457806 0.446955 0.433382 0.422391
 0.411156 0.396979 0.385767 0.371754 0.35989 0.348656 0.334469 0.322727 0.311727 0.298259 0.287424 0.276824 0.264054 0.254263 0.
24457 0.23237 0.222891 0.21158 0.202884 0.194674 0.185076 0.177681 0.170279 0.160651 0.153131 0.14596 0.137487 0.131631 0.126548
 0.120588 0.116259 0.110541 0.105921 0.101703 0.0965981 0.0922223 0.0880448 0.0834552 0.0798344 0.0764802 0.0725176 0.0691035 0.
0659731 0.0624577 0.0601623 0.0577459 0.0557106 0.0535195 0.0511081 0.0491998 0.0476256 0.0457292 0.0443705 0.0435077 0.0425902
0.0413308 0.0395362 0.0383112 0.0370513 0.0358639 0.0355354 0.0353411 0.0345207 0.0337653 0.033518 0.032941 0.0321683 0.0309759
0.0303827 0.0299056 0.0291187 0.0290307 0.028831 0.0283389 0.0280333 0.0279843 0.028228 0.0279135 0.0271146 0.02692 0.0267926 0.
0258045 0.025436 0.0254717 0.0251349 0.0247945 0.0246681 0.024807 0.0249043 0.0247025 0.0244536 0.0244398 0.0246499 0.0245833 0.
0241503 0.0233485 0.0231902 0.0235345 0.0237287 0.0235601 0.0230774 0.0228856 0.0233402 0.0235351 0.0237167 0.0239193 0.0237555
0.0237354 0.0238151 0.0243489 0.0244416 0.024141 0.0244106 0.0247855 0.024637 0.0245663 0.0243589 0.0239754 0.0236418 0.0233561
0.0233631 0.0237277 0.0231923 0.0221157 0.0214549 0.0210438 0.0215984 0.0231633 0.0238558 0.0237793 0.0238699 0.0244244 0.024621
 0.0247898 0.0248455 0.024365 0.0246099 0.0243927 0.0239831 0.0240905 0.0244024 0.0240231 0.0237321 0.0237641 0.0233395 0.023086
8 0.0225214 0.0218613 0.0216078 0.0215258 0.0217711 0.0222734 0.0226282 0.0226164 0.0222621 0.0218602 0.0216143 0.0221332 0.0225
562 0.0234873 0.0243211
$PPY 570 0 1 2 0.0210438 0.566088
$PEG
$PST
$PC "" 0
$PR
$PET
$PED